t;Z(t);V;n
0;0;60;50;
1;0.0029955
2;0.00598204
3;0.00895962
4;0.0119283
5;0.0148881
6;0.017839
7;0.020781
8;0.0237143
9;0.0266388
10;0.0295545
11;0.0324614
12;0.0353597
13;0.0382493
14;0.0411302
15;0.0440025
16;0.0468662
17;0.0497213
18;0.0525679
19;0.0554059
20;0.0582355
21;0.0610565
22;0.0638691
23;0.0666733
24;0.0694691
25;0.0722565
26;0.0750356
27;0.0778063
28;0.0805687
29;0.0833229
30;0.0860688
31;0.0888065
32;0.091536
33;0.0942573
34;0.0969704
35;0.0996755
36;0.102372
37;0.105061
38;0.107742
39;0.110415
40;0.11308
41;0.115736
42;0.118385
43;0.121026
44;0.123659
45;0.126284
46;0.128901
47;0.131511
48;0.134112
49;0.136706
50;0.139292
51;0.14187
52;0.144441
53;0.147004
54;0.149559
55;0.152106
56;0.154646
57;0.157178
58;0.159703
59;0.16222
60;0.16473
61;0.167232
62;0.169726
63;0.172213
64;0.174693
65;0.177165
66;0.17963
67;0.182088
68;0.184538
69;0.18698
70;0.189416
71;0.191844
72;0.194265
73;0.196678
74;0.199085
75;0.201484
76;0.203876
77;0.206261
78;0.208638
79;0.211009
80;0.213372
81;0.215728
82;0.218078
83;0.22042
84;0.222755
85;0.225084
86;0.227405
87;0.229719
88;0.232026
89;0.234327
90;0.236621
91;0.238907
92;0.241187
93;0.24346
94;0.245726
95;0.247986
96;0.250238
97;0.252484
98;0.254724
99;0.256956
100;0.259182
101;0.261401
102;0.263613
103;0.265819
104;0.268018
105;0.270211
106;0.272397
107;0.274577
108;0.27675
109;0.278916
110;0.281076
111;0.28323
112;0.285377
113;0.287518
114;0.289652
115;0.29178
116;0.293901
117;0.296016
118;0.298125
119;0.300228
120;0.302324
121;0.304414
122;0.306497
123;0.308575
124;0.310646
125;0.312711
126;0.314769
127;0.316822
128;0.318869
129;0.320909
130;0.322943
131;0.324971
132;0.326993
133;0.329009
134;0.331019
135;0.333023
136;0.335021
137;0.337013
138;0.338999
139;0.340979
140;0.342953
141;0.344921
142;0.346884
143;0.34884
144;0.350791
145;0.352735
146;0.354674
147;0.356607
148;0.358535
149;0.360456
150;0.362372
151;0.364282
152;0.366186
153;0.368085
154;0.369978
155;0.371865
156;0.373746
157;0.375622
158;0.377493
159;0.379357
160;0.381217
161;0.38307
162;0.384918
163;0.386761
164;0.388598
165;0.390429
166;0.392255
167;0.394076
168;0.395891
169;0.3977
170;0.399504
171;0.401303
172;0.403097
173;0.404885
174;0.406667
175;0.408445
176;0.410217
177;0.411983
178;0.413745
179;0.415501
180;0.417252
181;0.418997
182;0.420738
183;0.422473
184;0.424203
185;0.425928
186;0.427647
187;0.429362
188;0.431071
189;0.432775
190;0.434475
191;0.436169
192;0.437858
193;0.439541
194;0.44122
195;0.442894
196;0.444563
197;0.446227
198;0.447886
199;0.449539
200;0.451188
201;0.452832
202;0.454471
203;0.456106
204;0.457735
205;0.459359
206;0.460979
207;0.462593
208;0.464203
209;0.465808
210;0.467408
211;0.469004
212;0.470594
213;0.47218
214;0.473761
215;0.475337
216;0.476909
217;0.478476
218;0.480038
219;0.481596
220;0.483149
221;0.484697
222;0.48624
223;0.487779
224;0.489314
225;0.490844
226;0.492369
227;0.493889
228;0.495405
229;0.496917
230;0.498424
231;0.499926
232;0.501424
233;0.502918
234;0.504407
235;0.505891
236;0.507372
237;0.508847
238;0.510318
239;0.511785
240;0.513248
241;0.514706
242;0.51616
243;0.517609
244;0.519054
245;0.520495
246;0.521931
247;0.523363
248;0.524791
249;0.526214
250;0.527633
251;0.529048
252;0.530459
253;0.531866
254;0.533268
255;0.534666
256;0.53606
257;0.53745
258;0.538835
259;0.540217
260;0.541594
261;0.542967
262;0.544336
263;0.545701
264;0.547062
265;0.548419
266;0.549771
267;0.55112
268;0.552465
269;0.553805
270;0.555142
271;0.556475
272;0.557803
273;0.559128
274;0.560448
275;0.561765
276;0.563078
277;0.564387
278;0.565691
279;0.566992
280;0.568289
281;0.569583
282;0.570872
283;0.572157
284;0.573439
285;0.574717
286;0.575991
287;0.577261
288;0.578527
289;0.57979
290;0.581048
291;0.582303
292;0.583555
293;0.584802
294;0.586046
295;0.587286
296;0.588522
297;0.589755
298;0.590984
299;0.592209
300;0.59343
301;0.594648
302;0.595862
303;0.597073
304;0.59828
305;0.599483
306;0.600683
307;0.601879
308;0.603072
309;0.604261
310;0.605446
311;0.606628
312;0.607807
313;0.608981
314;0.610153
315;0.61132
316;0.612485
317;0.613646
318;0.614803
319;0.615957
320;0.617107
321;0.618254
322;0.619398
323;0.620538
324;0.621674
325;0.622808
326;0.623938
327;0.625064
328;0.626187
329;0.627307
330;0.628423
331;0.629536
332;0.630646
333;0.631752
334;0.632856
335;0.633955
336;0.635052
337;0.636145
338;0.637235
339;0.638322
340;0.639405
341;0.640485
342;0.641562
343;0.642636
344;0.643706
345;0.644774
346;0.645838
347;0.646899
348;0.647956
349;0.649011
350;0.650062
351;0.65111
352;0.652156
353;0.653198
354;0.654236
355;0.655272
356;0.656305
357;0.657334
358;0.658361
359;0.659384
360;0.660404
361;0.661422
362;0.662436
363;0.663447
364;0.664455
365;0.66546
366;0.666463
367;0.667462
368;0.668458
369;0.669451
370;0.670441
371;0.671428
372;0.672412
373;0.673394
374;0.674372
375;0.675348
376;0.67632
377;0.67729
378;0.678256
379;0.67922
380;0.680181
381;0.681139
382;0.682094
383;0.683046
384;0.683996
385;0.684942
386;0.685886
387;0.686827
388;0.687765
389;0.688701
390;0.689633
391;0.690563
392;0.69149
393;0.692414
394;0.693335
395;0.694254
396;0.69517
397;0.696083
398;0.696993
399;0.697901
400;0.698806
401;0.699708
402;0.700608
403;0.701504
404;0.702399
405;0.70329
406;0.704179
407;0.705065
408;0.705948
409;0.706829
410;0.707707
411;0.708583
412;0.709456
413;0.710326
414;0.711194
415;0.712059
416;0.712922
417;0.713782
418;0.714639
419;0.715494
420;0.716346
421;0.717196
422;0.718043
423;0.718887
424;0.719729
425;0.720569
426;0.721406
427;0.722241
428;0.723073
429;0.723902
430;0.724729
431;0.725554
432;0.726376
433;0.727196
434;0.728013
435;0.728827
436;0.72964
437;0.73045
438;0.731257
439;0.732062
440;0.732865
441;0.733665
442;0.734463
443;0.735258
444;0.736051
445;0.736842
446;0.73763
447;0.738416
448;0.7392
449;0.739981
450;0.74076
451;0.741536
452;0.742311
453;0.743082
454;0.743852
455;0.744619
456;0.745384
457;0.746147
458;0.746907
459;0.747666
460;0.748421
461;0.749175
462;0.749926
463;0.750675
464;0.751422
465;0.752167
466;0.752909
467;0.75365
468;0.754387
469;0.755123
470;0.755857
471;0.756588
472;0.757317
473;0.758044
474;0.758769
475;0.759492
476;0.760212
477;0.76093
478;0.761646
479;0.76236
480;0.763072
481;0.763782
482;0.76449
483;0.765195
484;0.765898
485;0.7666
486;0.767299
487;0.767996
488;0.768691
489;0.769384
490;0.770075
491;0.770763
492;0.77145
493;0.772135
494;0.772817
495;0.773498
496;0.774176
497;0.774853
498;0.775527
499;0.776199
500;0.77687
501;0.777538
502;0.778205
503;0.778869
504;0.779531
505;0.780192
506;0.78085
507;0.781507
508;0.782161
509;0.782814
510;0.783464
511;0.784113
512;0.78476
513;0.785404
514;0.786047
515;0.786688
516;0.787327
517;0.787964
518;0.788599
519;0.789233
520;0.789864
521;0.790493
522;0.791121
523;0.791747
524;0.79237
525;0.792992
526;0.793613
527;0.794231
528;0.794847
529;0.795462
530;0.796074
531;0.796685
532;0.797294
533;0.797901
534;0.798507
535;0.79911
536;0.799712
537;0.800312
538;0.80091
539;0.801507
540;0.802101
541;0.802694
542;0.803285
543;0.803874
544;0.804462
545;0.805048
546;0.805632
547;0.806214
548;0.806794
549;0.807373
550;0.80795
551;0.808525
552;0.809099
553;0.809671
554;0.810241
555;0.810809
556;0.811376
557;0.811941
558;0.812504
559;0.813066
560;0.813626
561;0.814184
562;0.814741
563;0.815296
564;0.815849
565;0.816401
566;0.816951
567;0.817499
568;0.818046
569;0.818591
570;0.819134
571;0.819676
572;0.820216
573;0.820755
574;0.821292
575;0.821827
576;0.822361
577;0.822893
578;0.823423
579;0.823952
580;0.82448
581;0.825005
582;0.82553
583;0.826052
584;0.826573
585;0.827093
586;0.827611
587;0.828127
588;0.828642
589;0.829155
590;0.829667
591;0.830177
592;0.830686
593;0.831193
594;0.831699
595;0.832203
596;0.832706
597;0.833207
598;0.833706
599;0.834204
600;0.834701
601;0.835196
602;0.83569
603;0.836182
604;0.836673
605;0.837162
606;0.83765
607;0.838136
608;0.838621
609;0.839104
610;0.839586
611;0.840067
612;0.840546
613;0.841024
614;0.8415
615;0.841975
616;0.842448
617;0.84292
618;0.843391
619;0.84386
620;0.844327
621;0.844794
622;0.845259
623;0.845722
624;0.846184
625;0.846645
626;0.847104
627;0.847562
628;0.848019
629;0.848474
630;0.848928
631;0.849381
632;0.849832
633;0.850282
634;0.85073
635;0.851177
636;0.851623
637;0.852068
638;0.852511
639;0.852953
640;0.853393
641;0.853832
642;0.85427
643;0.854707
644;0.855142
645;0.855576
646;0.856008
647;0.85644
648;0.85687
649;0.857298
650;0.857726
651;0.858152
652;0.858577
653;0.859001
654;0.859423
655;0.859844
656;0.860264
657;0.860683
658;0.8611
659;0.861516
660;0.861931
661;0.862344
662;0.862757
663;0.863168
664;0.863578
665;0.863986
666;0.864394
667;0.8648
668;0.865205
669;0.865609
670;0.866011
671;0.866413
672;0.866813
673;0.867212
674;0.86761
675;0.868006
676;0.868402
677;0.868796
678;0.869189
679;0.869581
680;0.869971
681;0.870361
682;0.870749
683;0.871136
684;0.871522
685;0.871907
686;0.872291
687;0.872673
688;0.873055
689;0.873435
690;0.873814
691;0.874192
692;0.874569
693;0.874945
694;0.875319
695;0.875693
696;0.876065
697;0.876436
698;0.876807
699;0.877176
700;0.877544
701;0.87791
702;0.878276
703;0.878641
704;0.879004
705;0.879367
706;0.879728
707;0.880088
708;0.880448
709;0.880806
710;0.881163
711;0.881519
712;0.881874
713;0.882227
714;0.88258
715;0.882932
716;0.883283
717;0.883632
718;0.883981
719;0.884328
720;0.884675
721;0.88502
722;0.885365
723;0.885708
724;0.886051
725;0.886392
726;0.886732
727;0.887071
728;0.88741
729;0.887747
730;0.888083
731;0.888418
732;0.888753
733;0.889086
734;0.889418
735;0.889749
736;0.89008
737;0.890409
738;0.890737
739;0.891065
740;0.891391
741;0.891716
742;0.892041
743;0.892364
744;0.892686
745;0.893008
746;0.893328
747;0.893648
748;0.893966
749;0.894284
750;0.894601
751;0.894916
752;0.895231
753;0.895545
754;0.895858
755;0.89617
756;0.896481
757;0.896791
758;0.8971
759;0.897408
760;0.897716
761;0.898022
762;0.898328
763;0.898632
764;0.898936
765;0.899239
766;0.89954
767;0.899841
768;0.900141
769;0.900441
770;0.900739
771;0.901036
772;0.901333
773;0.901628
774;0.901923
775;0.902217
776;0.902509
777;0.902802
778;0.903093
779;0.903383
780;0.903672
781;0.903961
782;0.904249
783;0.904535
784;0.904821
785;0.905106
786;0.905391
787;0.905674
788;0.905957
789;0.906238
790;0.906519
791;0.906799
792;0.907078
793;0.907357
794;0.907634
795;0.907911
796;0.908187
797;0.908462
798;0.908736
799;0.909009
800;0.909282
801;0.909554
802;0.909825
803;0.910095
804;0.910364
805;0.910633
806;0.9109
807;0.911167
808;0.911433
809;0.911699
810;0.911963
811;0.912227
812;0.91249
813;0.912752
814;0.913013
815;0.913274
816;0.913534
817;0.913793
818;0.914051
819;0.914308
820;0.914565
821;0.914821
822;0.915076
823;0.915331
824;0.915584
825;0.915837
826;0.916089
827;0.91634
828;0.916591
829;0.916841
830;0.91709
831;0.917338
832;0.917586
833;0.917833
834;0.918079
835;0.918324
836;0.918569
837;0.918813
838;0.919056
839;0.919299
840;0.91954
841;0.919781
842;0.920022
843;0.920261
844;0.9205
845;0.920738
846;0.920976
847;0.921212
848;0.921448
849;0.921684
850;0.921918
851;0.922152
852;0.922385
853;0.922618
854;0.92285
855;0.923081
856;0.923311
857;0.923541
858;0.92377
859;0.923998
860;0.924226
861;0.924453
862;0.924679
863;0.924905
864;0.92513
865;0.925354
866;0.925578
867;0.925801
868;0.926023
869;0.926245
870;0.926465
871;0.926686
872;0.926905
873;0.927124
874;0.927343
875;0.92756
876;0.927777
877;0.927994
878;0.928209
879;0.928424
880;0.928639
881;0.928852
882;0.929066
883;0.929278
884;0.92949
885;0.929701
886;0.929912
887;0.930122
888;0.930331
889;0.93054
890;0.930748
891;0.930955
892;0.931162
893;0.931368
894;0.931574
895;0.931779
896;0.931983
897;0.932187
898;0.93239
899;0.932593
900;0.932794
901;0.932996
902;0.933197
903;0.933397
904;0.933596
905;0.933795
906;0.933993
907;0.934191
908;0.934388
909;0.934585
910;0.934781
911;0.934976
912;0.935171
913;0.935365
914;0.935559
915;0.935752
916;0.935944
917;0.936136
918;0.936327
919;0.936518
920;0.936708
921;0.936898
922;0.937087
923;0.937275
924;0.937463
925;0.937651
926;0.937837
927;0.938024
928;0.938209
929;0.938394
930;0.938579
931;0.938763
932;0.938946
933;0.939129
934;0.939311
935;0.939493
936;0.939674
937;0.939855
938;0.940035
939;0.940215
940;0.940394
941;0.940573
942;0.940751
943;0.940928
944;0.941105
945;0.941281
946;0.941457
947;0.941633
948;0.941808
949;0.941982
950;0.942156
951;0.942329
952;0.942502
953;0.942674
954;0.942846
955;0.943017
956;0.943188
957;0.943358
958;0.943527
959;0.943697
960;0.943865
961;0.944033
962;0.944201
963;0.944368
964;0.944535
965;0.944701
966;0.944867
967;0.945032
968;0.945196
969;0.945361
970;0.945524
971;0.945687
972;0.94585
973;0.946012
974;0.946174
975;0.946335
976;0.946496
977;0.946656
978;0.946816
979;0.946975
980;0.947134
981;0.947293
982;0.947451
983;0.947608
984;0.947765
985;0.947921
986;0.948077
987;0.948233
988;0.948388
989;0.948543
990;0.948697
991;0.94885
992;0.949004
993;0.949156
994;0.949309
995;0.94946
996;0.949612
997;0.949763
998;0.949913
999;0.950063
1000;0.950213
1001;0.950362
1002;0.950511
1003;0.950659
1004;0.950807
1005;0.950954
1006;0.951101
1007;0.951248
1008;0.951394
1009;0.951539
1010;0.951684
1011;0.951829
1012;0.951973
1013;0.952117
1014;0.952261
1015;0.952404
1016;0.952546
1017;0.952688
1018;0.95283
1019;0.952971
1020;0.953112
1021;0.953253
1022;0.953393
1023;0.953532
1024;0.953672
1025;0.95381
1026;0.953949
1027;0.954087
1028;0.954224
1029;0.954361
1030;0.954498
1031;0.954634
1032;0.95477
1033;0.954906
1034;0.955041
1035;0.955175
1036;0.95531
1037;0.955444
1038;0.955577
1039;0.95571
1040;0.955843
1041;0.955975
1042;0.956107
1043;0.956238
1044;0.95637
1045;0.9565
1046;0.956631
1047;0.95676
1048;0.95689
1049;0.957019
1050;0.957148
1051;0.957276
1052;0.957404
1053;0.957532
1054;0.957659
1055;0.957786
1056;0.957912
1057;0.958038
1058;0.958164
1059;0.958289
1060;0.958414
1061;0.958539
1062;0.958663
1063;0.958787
1064;0.95891
1065;0.959033
1066;0.959156
1067;0.959279
1068;0.959401
1069;0.959522
1070;0.959643
1071;0.959764
1072;0.959885
1073;0.960005
1074;0.960125
1075;0.960244
1076;0.960363
1077;0.960482
1078;0.9606
1079;0.960718
1080;0.960836
1081;0.960953
1082;0.96107
1083;0.961187
1084;0.961303
1085;0.961419
1086;0.961535
1087;0.96165
1088;0.961765
1089;0.961879
1090;0.961994
1091;0.962107
1092;0.962221
1093;0.962334
1094;0.962447
1095;0.962559
1096;0.962672
1097;0.962783
1098;0.962895
1099;0.963006
1100;0.963117
1101;0.963227
1102;0.963337
1103;0.963447
1104;0.963557
1105;0.963666
1106;0.963775
1107;0.963883
1108;0.963991
1109;0.964099
1110;0.964207
1111;0.964314
1112;0.964421
1113;0.964528
1114;0.964634
1115;0.96474
1116;0.964845
1117;0.964951
1118;0.965056
1119;0.96516
1120;0.965265
1121;0.965369
1122;0.965473
1123;0.965576
1124;0.965679
1125;0.965782
1126;0.965884
1127;0.965987
1128;0.966088
1129;0.96619
1130;0.966291
1131;0.966392
1132;0.966493
1133;0.966593
1134;0.966693
1135;0.966793
1136;0.966893
1137;0.966992
1138;0.967091
1139;0.967189
1140;0.967288
1141;0.967386
1142;0.967483
1143;0.967581
1144;0.967678
1145;0.967775
1146;0.967871
1147;0.967967
1148;0.968063
1149;0.968159
1150;0.968254
1151;0.968349
1152;0.968444
1153;0.968539
1154;0.968633
1155;0.968727
1156;0.968821
1157;0.968914
1158;0.969007
1159;0.9691
1160;0.969193
1161;0.969285
1162;0.969377
1163;0.969469
1164;0.96956
1165;0.969651
1166;0.969742
1167;0.969833
1168;0.969923
1169;0.970013
1170;0.970103
1171;0.970193
1172;0.970282
1173;0.970371
1174;0.97046
1175;0.970548
1176;0.970636
1177;0.970724
1178;0.970812
1179;0.9709
1180;0.970987
1181;0.971074
1182;0.97116
1183;0.971247
1184;0.971333
1185;0.971419
1186;0.971504
1187;0.97159
1188;0.971675
1189;0.97176
1190;0.971844
1191;0.971928
1192;0.972013
1193;0.972096
1194;0.97218
1195;0.972263
1196;0.972346
1197;0.972429
1198;0.972512
1199;0.972594
1200;0.972676
1201;0.972758
1202;0.97284
1203;0.972921
1204;0.973002
1205;0.973083
1206;0.973164
1207;0.973244
1208;0.973324
1209;0.973404
1210;0.973484
1211;0.973563
1212;0.973642
1213;0.973721
1214;0.9738
1215;0.973879
1216;0.973957
1217;0.974035
1218;0.974113
1219;0.97419
1220;0.974267
1221;0.974345
1222;0.974421
1223;0.974498
1224;0.974574
1225;0.974651
1226;0.974727
1227;0.974802
1228;0.974878
1229;0.974953
1230;0.975028
1231;0.975103
1232;0.975177
1233;0.975252
1234;0.975326
1235;0.9754
1236;0.975473
1237;0.975547
1238;0.97562
1239;0.975693
1240;0.975766
1241;0.975839
1242;0.975911
1243;0.975983
1244;0.976055
1245;0.976127
1246;0.976198
1247;0.97627
1248;0.976341
1249;0.976412
1250;0.976482
1251;0.976553
1252;0.976623
1253;0.976693
1254;0.976763
1255;0.976832
1256;0.976902
1257;0.976971
1258;0.97704
1259;0.977109
1260;0.977177
1261;0.977246
1262;0.977314
1263;0.977382
1264;0.97745
1265;0.977517
1266;0.977584
1267;0.977652
1268;0.977719
1269;0.977785
1270;0.977852
1271;0.977918
1272;0.977984
1273;0.97805
1274;0.978116
1275;0.978182
1276;0.978247
1277;0.978312
1278;0.978377
1279;0.978442
1280;0.978506
1281;0.978571
1282;0.978635
1283;0.978699
1284;0.978763
1285;0.978826
1286;0.97889
1287;0.978953
1288;0.979016
1289;0.979079
1290;0.979142
1291;0.979204
1292;0.979266
1293;0.979329
1294;0.97939
1295;0.979452
1296;0.979514
1297;0.979575
1298;0.979636
1299;0.979697
1300;0.979758
1301;0.979819
1302;0.979879
1303;0.979939
1304;0.98
1305;0.980059
1306;0.980119
1307;0.980179
1308;0.980238
1309;0.980297
1310;0.980356
1311;0.980415
1312;0.980474
1313;0.980532
1314;0.980591
1315;0.980649
1316;0.980707
1317;0.980765
1318;0.980822
1319;0.98088
1320;0.980937
1321;0.980994
1322;0.981051
1323;0.981108
1324;0.981164
1325;0.981221
1326;0.981277
1327;0.981333
1328;0.981389
1329;0.981445
1330;0.9815
1331;0.981556
1332;0.981611
1333;0.981666
1334;0.981721
1335;0.981776
1336;0.98183
1337;0.981885
1338;0.981939
1339;0.981993
1340;0.982047
1341;0.982101
1342;0.982154
1343;0.982208
1344;0.982261
1345;0.982314
1346;0.982367
1347;0.98242
1348;0.982473
1349;0.982525
1350;0.982578
1351;0.98263
1352;0.982682
1353;0.982734
1354;0.982785
1355;0.982837
1356;0.982888
1357;0.98294
1358;0.982991
1359;0.983042
1360;0.983093
1361;0.983143
1362;0.983194
1363;0.983244
1364;0.983294
1365;0.983344
1366;0.983394
1367;0.983444
1368;0.983493
1369;0.983543
1370;0.983592
1371;0.983641
1372;0.98369
1373;0.983739
1374;0.983788
1375;0.983837
1376;0.983885
1377;0.983933
1378;0.983981
1379;0.984029
1380;0.984077
1381;0.984125
1382;0.984172
1383;0.98422
1384;0.984267
1385;0.984314
1386;0.984361
1387;0.984408
1388;0.984455
1389;0.984501
1390;0.984548
1391;0.984594
1392;0.98464
1393;0.984686
1394;0.984732
1395;0.984778
1396;0.984823
1397;0.984869
1398;0.984914
1399;0.984959
1400;0.985004
1401;0.985049
1402;0.985094
1403;0.985139
1404;0.985183
1405;0.985228
1406;0.985272
1407;0.985316
1408;0.98536
1409;0.985404
1410;0.985448
1411;0.985491
1412;0.985535
1413;0.985578
1414;0.985621
1415;0.985664
1416;0.985707
1417;0.98575
1418;0.985793
1419;0.985835
1420;0.985878
1421;0.98592
1422;0.985962
1423;0.986004
1424;0.986046
1425;0.986088
1426;0.98613
1427;0.986171
1428;0.986213
1429;0.986254
1430;0.986295
1431;0.986336
1432;0.986377
1433;0.986418
1434;0.986459
1435;0.986499
1436;0.98654
1437;0.98658
1438;0.98662
1439;0.98666
1440;0.9867
1441;0.98674
1442;0.98678
1443;0.986819
1444;0.986859
1445;0.986898
1446;0.986937
1447;0.986977
1448;0.987016
1449;0.987054
1450;0.987093
1451;0.987132
1452;0.98717
1453;0.987209
1454;0.987247
1455;0.987285
1456;0.987323
1457;0.987361
1458;0.987399
1459;0.987437
1460;0.987475
1461;0.987512
1462;0.98755
1463;0.987587
1464;0.987624
1465;0.987661
1466;0.987698
1467;0.987735
1468;0.987772
1469;0.987808
1470;0.987845
1471;0.987881
1472;0.987918
1473;0.987954
1474;0.98799
1475;0.988026
1476;0.988062
1477;0.988097
1478;0.988133
1479;0.988169
1480;0.988204
1481;0.988239
1482;0.988275
1483;0.98831
1484;0.988345
1485;0.98838
1486;0.988414
1487;0.988449
1488;0.988484
1489;0.988518
1490;0.988553
1491;0.988587
1492;0.988621
1493;0.988655
1494;0.988689
1495;0.988723
1496;0.988757
1497;0.988791
1498;0.988824
1499;0.988858
1500;0.988891
1501;0.988924
1502;0.988957
1503;0.988991
1504;0.989024
1505;0.989056
1506;0.989089
1507;0.989122
1508;0.989154
1509;0.989187
1510;0.989219
1511;0.989252
1512;0.989284
1513;0.989316
1514;0.989348
1515;0.98938
1516;0.989412
1517;0.989443
1518;0.989475
1519;0.989507
1520;0.989538
1521;0.989569
1522;0.989601
1523;0.989632
1524;0.989663
1525;0.989694
1526;0.989725
1527;0.989755
1528;0.989786
1529;0.989817
1530;0.989847
1531;0.989878
1532;0.989908
1533;0.989938
1534;0.989968
1535;0.989998
1536;0.990028
1537;0.990058
1538;0.990088
1539;0.990118
1540;0.990147
1541;0.990177
1542;0.990206
1543;0.990235
1544;0.990265
1545;0.990294
1546;0.990323
1547;0.990352
1548;0.990381
1549;0.99041
1550;0.990438
1551;0.990467
1552;0.990496
1553;0.990524
1554;0.990552
1555;0.990581
1556;0.990609
1557;0.990637
1558;0.990665
1559;0.990693
1560;0.990721
1561;0.990749
1562;0.990776
1563;0.990804
1564;0.990832
1565;0.990859
1566;0.990887
1567;0.990914
1568;0.990941
1569;0.990968
1570;0.990995
1571;0.991022
1572;0.991049
1573;0.991076
1574;0.991103
1575;0.991129
1576;0.991156
1577;0.991182
1578;0.991209
1579;0.991235
1580;0.991261
1581;0.991288
1582;0.991314
1583;0.99134
1584;0.991366
1585;0.991391
1586;0.991417
1587;0.991443
1588;0.991469
1589;0.991494
1590;0.99152
1591;0.991545
1592;0.99157
1593;0.991596
1594;0.991621
1595;0.991646
1596;0.991671
1597;0.991696
1598;0.991721
1599;0.991746
1600;0.99177
1601;0.991795
1602;0.991819
1603;0.991844
1604;0.991868
1605;0.991893
1606;0.991917
1607;0.991941
1608;0.991965
1609;0.991989
1610;0.992013
1611;0.992037
1612;0.992061
1613;0.992085
1614;0.992109
1615;0.992132
1616;0.992156
1617;0.992179
1618;0.992203
1619;0.992226
1620;0.99225
1621;0.992273
1622;0.992296
1623;0.992319
1624;0.992342
1625;0.992365
1626;0.992388
1627;0.992411
1628;0.992433
1629;0.992456
1630;0.992479
1631;0.992501
1632;0.992524
1633;0.992546
1634;0.992568
1635;0.992591
1636;0.992613
1637;0.992635
1638;0.992657
1639;0.992679
1640;0.992701
1641;0.992723
1642;0.992745
1643;0.992766
1644;0.992788
1645;0.99281
1646;0.992831
1647;0.992853
1648;0.992874
1649;0.992895
1650;0.992917
1651;0.992938
1652;0.992959
1653;0.99298
1654;0.993001
1655;0.993022
1656;0.993043
1657;0.993064
1658;0.993085
1659;0.993105
1660;0.993126
1661;0.993147
1662;0.993167
1663;0.993188
1664;0.993208
1665;0.993228
1666;0.993249
1667;0.993269
1668;0.993289
1669;0.993309
1670;0.993329
1671;0.993349
1672;0.993369
1673;0.993389
1674;0.993409
1675;0.993428
1676;0.993448
1677;0.993468
1678;0.993487
1679;0.993507
1680;0.993526
1681;0.993546
1682;0.993565
1683;0.993584
1684;0.993603
1685;0.993623
1686;0.993642
1687;0.993661
1688;0.99368
1689;0.993699
1690;0.993718
1691;0.993736
1692;0.993755
1693;0.993774
1694;0.993793
1695;0.993811
1696;0.99383
1697;0.993848
1698;0.993867
1699;0.993885
1700;0.993903
1701;0.993922
1702;0.99394
1703;0.993958
1704;0.993976
1705;0.993994
1706;0.994012
1707;0.99403
1708;0.994048
1709;0.994066
1710;0.994083
1711;0.994101
1712;0.994119
1713;0.994136
1714;0.994154
1715;0.994172
1716;0.994189
1717;0.994206
1718;0.994224
1719;0.994241
1720;0.994258
1721;0.994275
1722;0.994293
1723;0.99431
1724;0.994327
1725;0.994344
1726;0.994361
1727;0.994378
1728;0.994394
1729;0.994411
1730;0.994428
1731;0.994445
1732;0.994461
1733;0.994478
1734;0.994494
1735;0.994511
1736;0.994527
1737;0.994544
1738;0.99456
1739;0.994576
1740;0.994593
1741;0.994609
1742;0.994625
1743;0.994641
1744;0.994657
1745;0.994673
1746;0.994689
1747;0.994705
1748;0.994721
1749;0.994737
1750;0.994752
1751;0.994768
1752;0.994784
1753;0.994799
1754;0.994815
1755;0.994831
1756;0.994846
1757;0.994862
1758;0.994877
1759;0.994892
1760;0.994908
1761;0.994923
1762;0.994938
1763;0.994953
1764;0.994968
1765;0.994983
1766;0.994998
1767;0.995013
1768;0.995028
1769;0.995043
1770;0.995058
1771;0.995073
1772;0.995088
1773;0.995102
1774;0.995117
1775;0.995132
1776;0.995146
1777;0.995161
1778;0.995175
1779;0.99519
1780;0.995204
1781;0.995218
1782;0.995233
1783;0.995247
1784;0.995261
1785;0.995276
1786;0.99529
1787;0.995304
1788;0.995318
1789;0.995332
1790;0.995346
1791;0.99536
1792;0.995374
1793;0.995388
1794;0.995401
1795;0.995415
1796;0.995429
1797;0.995443
1798;0.995456
1799;0.99547
1800;0.995483
1801;0.995497
1802;0.99551
1803;0.995524
1804;0.995537
1805;0.995551
1806;0.995564
1807;0.995577
1808;0.995591
1809;0.995604
1810;0.995617
1811;0.99563
1812;0.995643
1813;0.995656
1814;0.995669
1815;0.995682
1816;0.995695
1817;0.995708
1818;0.995721
1819;0.995734
1820;0.995746
1821;0.995759
1822;0.995772
1823;0.995785
1824;0.995797
1825;0.99581
1826;0.995822
1827;0.995835
1828;0.995847
1829;0.99586
1830;0.995872
1831;0.995885
1832;0.995897
1833;0.995909
1834;0.995921
1835;0.995934
1836;0.995946
1837;0.995958
1838;0.99597
1839;0.995982
1840;0.995994
1841;0.996006
1842;0.996018
1843;0.99603
1844;0.996042
1845;0.996054
1846;0.996066
1847;0.996077
1848;0.996089
1849;0.996101
1850;0.996113
1851;0.996124
1852;0.996136
1853;0.996147
1854;0.996159
1855;0.99617
1856;0.996182
1857;0.996193
1858;0.996205
1859;0.996216
1860;0.996227
1861;0.996239
1862;0.99625
1863;0.996261
1864;0.996272
1865;0.996284
1866;0.996295
1867;0.996306
1868;0.996317
1869;0.996328
1870;0.996339
1871;0.99635
1872;0.996361
1873;0.996372
1874;0.996383
1875;0.996393
1876;0.996404
1877;0.996415
1878;0.996426
1879;0.996436
1880;0.996447
1881;0.996458
1882;0.996468
1883;0.996479
1884;0.99649
1885;0.9965
1886;0.996511
1887;0.996521
1888;0.996531
1889;0.996542
1890;0.996552
1891;0.996562
1892;0.996573
1893;0.996583
1894;0.996593
1895;0.996603
1896;0.996614
1897;0.996624
1898;0.996634
1899;0.996644
1900;0.996654
1901;0.996664
1902;0.996674
1903;0.996684
1904;0.996694
1905;0.996704
1906;0.996714
1907;0.996724
1908;0.996733
1909;0.996743
1910;0.996753
1911;0.996763
1912;0.996772
1913;0.996782
1914;0.996792
1915;0.996801
1916;0.996811
1917;0.99682
1918;0.99683
1919;0.996839
1920;0.996849
1921;0.996858
1922;0.996868
1923;0.996877
1924;0.996886
1925;0.996896
1926;0.996905
1927;0.996914
1928;0.996924
1929;0.996933
1930;0.996942
1931;0.996951
1932;0.99696
1933;0.996969
1934;0.996978
1935;0.996988
1936;0.996997
1937;0.997006
1938;0.997015
1939;0.997023
1940;0.997032
1941;0.997041
1942;0.99705
1943;0.997059
1944;0.997068
1945;0.997077
1946;0.997085
1947;0.997094
1948;0.997103
1949;0.997111
1950;0.99712
1951;0.997129
1952;0.997137
1953;0.997146
1954;0.997154
1955;0.997163
1956;0.997171
1957;0.99718
1958;0.997188
1959;0.997197
1960;0.997205
1961;0.997214
1962;0.997222
1963;0.99723
1964;0.997239
1965;0.997247
1966;0.997255
1967;0.997263
1968;0.997271
1969;0.99728
1970;0.997288
1971;0.997296
1972;0.997304
1973;0.997312
1974;0.99732
1975;0.997328
1976;0.997336
1977;0.997344
1978;0.997352
1979;0.99736
1980;0.997368
1981;0.997376
1982;0.997384
1983;0.997392
1984;0.997399
1985;0.997407
1986;0.997415
1987;0.997423
1988;0.99743
1989;0.997438
1990;0.997446
1991;0.997453
1992;0.997461
1993;0.997469
1994;0.997476
1995;0.997484
1996;0.997491
1997;0.997499
1998;0.997506
1999;0.997514
